Folder: Dmitry_Cr2O3/XRD_data/W6725/XRD_2ThetaOmega

Note: XRD_data/W6725/XRD_2ThetaOmega/W6725_peaks.TXT
No.	Label	Pos. [°2Th.]	FWHM Left [°2Th.]	Area [cts*°2Th.]	Backgr.[cts]	d-spacing [Å]	Height [cts]	Shape Left	Status	Integral Breadth [°2Th.]	FWHM Right [°2Th.]	Shape Right	Obs. Lorentz B [°2Th.]	Obs. Gauss B [°2Th.]	Instr. Lorentz B [°2Th.]	Instr. Gauss B [°2Th.]	Crystallite Size [Å]	Micro Strain [%]	Crystallite Size only [Å]	Micro Strain only [%]
1	Cr2O3 3 0 0	64,4021(2)	0,3503(4)	8008,55	497,98	1,44551	14555(41)	1,000(3)	Included	0,550211	 	 	0,547629	0,009292	0,077299	0,065486	221,791400	-0,044913	221,781400	0,325886
2	Al2O3 3 0 0	68,148930(6)	0,05971(1)	54939,41	797,18	1,37487	719699(229)	0,5193(3)	Included	0,076337	 	 	0,042647	0,046074	0,078466	0,066474	-2975,171000	-0,030910	33695,380000	0,002040

Note: README.md
# W6725
## data
Folders:
- Transmission data (not corrected)
- "XRD_2ThetaOmega"
    - 10-130deg (whole range)
    - 58-72deg (range where we can see the peak)
    - "W6725_peaks.txt" tab seperated file with information about the film and substrate peak (important: Pos. [°2Th.])
- "XRD_Omega"
    - .xy-file containing data about the \omega-scan (Rocking curve)
    - "W6725_omega_peaks.txt" tab seperated file with information about the film peak (important: FWHM left [°])
- "XRD_Phi"
    - one file for the substrate (fix 2theta-position and rotate sample by 360°)
    - one file for the film
- "XRD_RSM"
    - not important for you, I think


Files:
- the highscore-plus files for omega and 2theta-scan (not important, i gave you everything extracted in the folders)
## the tilt angles
In the folder "tilt angle w6725" there is a picture of the reciprocal space maps. Along the c-direction (plane 30.6 and 30.-6) there is a tilt of ~32 arcseconds (32 (1/60)°). Also another picture zoomed onto the film peaks, ignore the numbers, they are just for correction.

The tilt angle perpendicular to the c-axis is only ~2 arcseconds.

# W6911m
Folders: same as above but wihtout transmission, Phi and RSM's

# Literature about growth

Here are 4 papers relevant for heteroepitaxial growth: (but be careful not to dive too deep, I am not sure how important the theoretical background is for you.)

Grundmann, M. (2018). Elastic theory of pseudomorphic monoclinic and rhombohedral heterostructures. Journal of Applied Physics, 124(18), 185302. https://doi.org/10.1063/1.5045845

Grundmann, M. (2020). A Most General and Facile Recipe for the Calculation of Heteroepitaxial Strain. Physica Status Solidi (b), 257(12), 2000323. https://doi.org/10.1002/pssb.202000323

Grundmann, M., & Lorenz, M. (2021). Azimuthal Anisotropy of Rhombohedral (Corundum Phase) Heterostructures. Physica Status Solidi (b), 258(7), 2100104. https://doi.org/10.1002/pssb.202100104

Kneiß, M., Splith, D., Von Wenckstern, H., Lorenz, M., Schultz, T., Koch, N., & Grundmann, M. (2021). Strain states and relaxation for alpha-Ga2O3 thin films on prismatic planes of alpha-Al2O3 in the full composition range: Fundamental difference of a- and m-epitaxial planes in the manifestation of shear strain and lattice tilt. Journal of Materials Research, 36(23), 4816–4831. https://doi.org/10.1557/s43578-021-00375-3

# Additional stuff
## W6725
fabrication details (probably not important for you)
- 650mJ laser energy, 40 000 pulses at 20 Hz
- 1e-3 mbar O2
- 760°C growth temperature
- 7.5mm offset from plasma center
- highest laser focus (high energy density)

In the folder additional stuff:

"1-RSM_latticeData.png"
- here you can see all three lattice constants extracted for some samples; the W6725 is the one in the middle

"1-shift_vs_d_combined.png"
- here you can see the 2theta scan compared to other samples from the series; the W6725 is the thickest (400nm)

## W6911

File: W6725_absolute_2th-om_10-130deg_17min.xy
10.0035 26.0
10.4072 24.0
10.811 27.0
11.2147 22.0
11.6185 20.0
12.0222 16.0
12.426 19.0
12.8298 17.0
13.2335 22.0
13.6373 20.0
14.041 24.0
14.4448 23.0
14.8485 16.0
15.2523 25.0
15.656 25.0
16.0598 17.0
16.4636 21.0
16.8673 18.0
17.2711 15.0
17.6748 12.0
18.0786 15.0
18.4823 9.0
18.8861 21.0
19.2899 20.0
19.6936 14.0
20.0974 7.0
20.5011 14.0
20.9049 6.0
21.3086 12.0
21.7124 15.0
22.1161 12.0
22.5199 15.0
22.9237 12.0
23.3274 12.0
23.7312 13.0
24.1349 19.0
24.5387 11.0
24.9424 9.0
25.3462 11.0
25.75 13.0
26.1537 4.0
26.5575 11.0
26.9612 8.0
27.365 7.0
27.7687 5.0
28.1725 10.0
28.5762 8.0
28.98 6.0
29.3838 10.0
29.7875 9.0
30.1913 5.0
30.595 6.0
30.9988 5.0
31.4025 7.0
31.8063 5.0
32.2101 8.0
32.6138 10.0
33.0176 9.0
33.4213 5.0
33.8251 7.0
34.2288 7.0
34.6326 6.0
35.0363 7.0
35.4401 8.0
35.8439 10.0
36.2476 9.0
36.6514 3.0
37.0551 3.0
37.4589 1.0
37.8626 9.0
38.2664 7.0
38.6702 8.0
39.0739 1.0
39.4777 1.0
39.8814 5.0
40.2852 4.0
40.6889 3.0
41.0927 7.0
41.4964 4.0
41.9002 5.0
42.304 7.0
42.7077 5.0
43.1115 0.0
43.5152 3.0
43.919 3.0
44.3227 4.0
44.7265 2.0
45.1303 4.0
45.534 7.0
45.9378 7.0
46.3415 2.0
46.7453 4.0
47.149 4.0
47.5528 6.0
47.9565 5.0
48.3603 6.0
48.7641 8.0
49.1678 6.0
49.5716 6.0
49.9753 2.0
50.3791 0.0
50.7828 1.0
51.1866 4.0
51.5903 1.0
51.9941 7.0
52.3979 3.0
52.8016 5.0
53.2054 4.0
53.6091 9.0
54.0129 0.0
54.4166 6.0
54.8204 3.0
55.2242 4.0
55.6279 8.0
56.0317 4.0
56.4354 3.0
56.8392 2.0
57.2429 9.0
57.6467 9.0
58.0504 7.0
58.4542 8.0
58.858 5.0
59.2617 2.0
59.6655 1.0
60.0692 3.0
60.473 1.0
60.8767 12.0
61.2805 10.0
61.6843 8.0
62.088 6.0
62.4918 13.0
62.8955 11.0
63.2993 28.0
63.703 118.0
64.1068 735.0
64.5105 676.0
64.9143 143.0
65.3181 81.0
65.7218 30.0
66.1256 19.0
66.5293 39.0
66.9331 38.0
67.3368 77.0
67.7406 343.0
68.1444 3902.0
68.5481 135.0
68.9519 65.0
69.3556 44.0
69.7594 34.0
70.1631 12.0
70.5669 9.0
70.9706 11.0
71.3744 4.0
71.7782 8.0
72.1819 11.0
72.5857 6.0
72.9894 3.0
73.3932 5.0
73.7969 3.0
74.2007 1.0
74.6045 5.0
75.0082 6.0
75.412 1.0
75.8157 2.0
76.2195 3.0
76.6232 4.0
77.027 4.0
77.4307 2.0
77.8345 2.0
78.2383 2.0
78.642 1.0
79.0458 7.0
79.4495 6.0
79.8533 2.0
80.257 3.0
80.6608 3.0
81.0646 2.0
81.4683 2.0
81.8721 1.0
82.2758 2.0
82.6796 5.0
83.0833 7.0
83.4871 4.0
83.8908 1.0
84.2946 1.0
84.6984 1.0
85.1021 1.0
85.5059 1.0
85.9096 2.0
86.3134 1.0
86.7171 0.0
87.1209 3.0
87.5247 1.0
87.9284 2.0
88.3322 5.0
88.7359 2.0
89.1397 2.0
89.5434 1.0
89.9472 4.0
90.3509 0.0
90.7547 5.0
91.1585 0.0
91.5622 3.0
91.966 3.0
92.3697 2.0
92.7735 4.0
93.1772 1.0
93.581 0.0
93.9848 5.0
94.3885 4.0
94.7923 0.0
95.196 4.0
95.5998 2.0
96.0035 1.0
96.4073 3.0
96.811 1.0
97.2148 4.0
97.6186 3.0
98.0223 0.0
98.4261 5.0
98.8298 2.0
99.2336 4.0
99.6373 6.0
100.041 4.0
100.445 0.0
100.849 4.0
101.252 4.0
101.656 3.0
102.06 2.0
102.464 2.0
102.867 3.0
103.271 3.0
103.675 0.0
104.079 0.0
104.482 4.0
104.886 0.0
105.29 1.0
105.694 3.0
106.097 3.0
106.501 2.0
106.905 4.0
107.309 0.0
107.712 0.0
108.116 0.0
108.52 2.0
108.924 4.0
109.327 0.0
109.731 0.0
110.135 0.0
110.539 1.0
110.943 2.0
111.346 2.0
111.75 2.0
112.154 4.0
112.558 4.0
112.961 2.0
113.365 2.0
113.769 5.0
114.173 5.0
114.576 5.0
114.98 2.0
115.384 4.0
115.788 3.0
116.191 2.0
116.595 1.0
116.999 5.0
117.403 0.0
117.806 1.0
118.21 2.0
118.614 2.0
119.018 4.0
119.421 4.0
119.825 8.0
120.229 2.0
120.633 5.0
121.036 5.0
121.44 2.0
121.844 4.0
122.248 0.0
122.651 2.0
123.055 5.0
123.459 5.0
123.863 3.0
124.266 3.0
124.67 1.0
125.074 0.0
125.478 0.0
125.881 1.0
126.285 2.0
126.689 3.0
127.093 4.0
127.497 2.0
127.9 5.0
128.304 3.0
128.708 4.0
129.112 7.0
129.515 1.0
129.919 4.0
129.998 1.0

File: W6725_absolute_2th-om_58-72deg-20min_5.xy
58.0028 307.0
58.0496 311.0
58.0964 274.0
58.1432 287.0
58.1899 305.0
58.2367 248.0
58.2835 273.0
58.3303 287.0
58.377 265.0
58.4238 275.0
58.4706 270.0
58.5174 289.0
58.5642 302.0
58.6109 265.0
58.6577 259.0
58.7045 285.0
58.7513 267.0
58.798 282.0
58.8448 295.0
58.8916 282.0
58.9384 292.0
58.9851 287.0
59.0319 289.0
59.0787 312.0
59.1255 288.0
59.1722 276.0
59.219 281.0
59.2658 274.0
59.3126 289.0
59.3594 245.0
59.4061 275.0
59.4529 308.0
59.4997 278.0
59.5465 299.0
59.5932 306.0
59.64 286.0
59.6868 275.0
59.7336 316.0
59.7803 306.0
59.8271 282.0
59.8739 275.0
59.9207 275.0
59.9674 298.0
60.0142 300.0
60.061 282.0
60.1078 292.0
60.1546 302.0
60.2013 333.0
60.2481 325.0
60.2949 306.0
60.3417 316.0
60.3884 342.0
60.4352 327.0
60.482 326.0
60.5288 293.0
60.5755 308.0
60.6223 362.0
60.6691 365.0
60.7159 426.0
60.7627 788.0
60.8094 2298.0
60.8562 1914.0
60.903 1277.0
60.9498 745.0
60.9965 474.0
61.0433 432.0
61.0901 417.0
61.1369 412.0
61.1836 392.0
61.2304 415.0
61.2772 432.0
61.324 426.0
61.3707 412.0
61.4175 448.0
61.4643 412.0
61.5111 431.0
61.5579 417.0
61.6046 409.0
61.6514 411.0
61.6982 413.0
61.745 361.0
61.7917 376.0
61.8385 365.0
61.8853 401.0
61.9321 375.0
61.9788 366.0
62.0256 361.0
62.0724 343.0
62.1192 392.0
62.166 389.0
62.2127 358.0
62.2595 376.0
62.3063 386.0
62.3531 380.0
62.3998 371.0
62.4466 358.0
62.4934 358.0
62.5402 374.0
62.5869 389.0
62.6337 369.0
62.6805 367.0
62.7273 423.0
62.774 418.0
62.8208 409.0
62.8676 429.0
62.9144 466.0
62.9612 461.0
63.0079 472.0
63.0547 488.0
63.1015 489.0
63.1483 459.0
63.195 535.0
63.2418 567.0
63.2886 567.0
63.3354 596.0
63.3821 649.0
63.4289 734.0
63.4757 732.0
63.5225 783.0
63.5693 925.0
63.616 970.0
63.6628 1079.0
63.7096 1265.0
63.7564 1457.0
63.8031 1670.0
63.8499 2063.0
63.8967 2404.0
63.9435 2964.0
63.9902 3520.0
64.037 4388.0
64.0838 5525.0
64.1306 6958.0
64.1773 8376.0
64.2241 10581.0
64.2709 12159.0
64.3177 13982.0
64.3645 15582.0
64.4112 16940.0
64.458 17469.0
64.5048 17104.0
64.5516 15696.0
64.5983 13865.0
64.6451 12051.0
64.6919 10480.0
64.7387 8611.0
64.7854 7180.0
64.8322 5970.0
64.879 5481.0
64.9258 7261.0
64.9725 6559.0
65.0193 3894.0
65.0661 2695.0
65.1129 2178.0
65.1597 1870.0
65.2064 1631.0
65.2532 1445.0
65.3 1330.0
65.3468 1221.0
65.3935 1199.0
65.4403 1283.0
65.4871 1677.0
65.5339 1384.0
65.5806 976.0
65.6274 919.0
65.6742 778.0
65.721 730.0
65.7678 701.0
65.8145 721.0
65.8613 658.0
65.9081 653.0
65.9549 643.0
66.0016 671.0
66.0484 669.0
66.0952 660.0
66.142 687.0
66.1887 695.0
66.2355 687.0
66.2823 681.0
66.3291 696.0
66.3758 670.0
66.4226 763.0
66.4694 734.0
66.5162 712.0
66.563 750.0
66.6097 726.0
66.6565 782.0
66.7033 770.0
66.7501 800.0
66.7968 806.0
66.8436 848.0
66.8904 937.0
66.9372 890.0
66.9839 939.0
67.0307 990.0
67.0775 990.0
67.1243 1014.0
67.1711 1140.0
67.2178 1155.0
67.2646 1203.0
67.3114 1277.0
67.3582 1390.0
67.4049 1465.0
67.4517 1592.0
67.4985 1725.0
67.5453 1890.0
67.592 2013.0
67.6388 2235.0
67.6856 2618.0
67.7324 3778.0
67.7791 5449.0
67.8259 7023.0
67.8727 6926.0
67.9195 7155.0
67.9663 9179.0
68.013 15152.0
68.0598 33388.0
68.1066 191014.0
68.1534 684705.0
68.2001 130559.0
68.2469 39043.0
68.2937 87609.0
68.3405 344756.0
68.3872 96556.0
68.434 20658.0
68.4808 10833.0
68.5276 7693.0
68.5743 5786.0
68.6211 4491.0
68.6679 3875.0
68.7147 3461.0
68.7615 3023.0
68.8082 2589.0
68.855 2238.0
68.9018 2149.0
68.9486 2007.0
68.9953 1778.0
69.0421 1794.0
69.0889 1625.0
69.1357 1561.0
69.1824 1502.0
69.2292 1471.0
69.276 1349.0
69.3228 1287.0
69.3696 1199.0
69.4163 1110.0
69.4631 1108.0
69.5099 1122.0
69.5567 1043.0
69.6034 952.0
69.6502 910.0
69.697 892.0
69.7438 912.0
69.7905 795.0
69.8373 846.0
69.8841 791.0
69.9309 675.0
69.9776 720.0
70.0244 740.0
70.0712 672.0
70.118 635.0
70.1648 594.0
70.2115 618.0
70.2583 583.0
70.3051 554.0
70.3519 561.0
70.3986 552.0
70.4454 543.0
70.4922 535.0
70.539 459.0
70.5857 456.0
70.6325 423.0
70.6793 443.0
70.7261 456.0
70.7729 448.0
70.8196 433.0
70.8664 438.0
70.9132 451.0
70.96 437.0
71.0067 429.0
71.0535 381.0
71.1003 439.0
71.1471 432.0
71.1938 375.0
71.2406 445.0
71.2874 354.0
71.3342 398.0
71.3809 381.0
71.4277 366.0
71.4745 351.0
71.5213 329.0
71.5681 398.0
71.6148 398.0
71.6616 370.0
71.7084 357.0
71.7552 339.0
71.8019 389.0
71.8487 345.0
71.8955 347.0
71.9423 333.0
71.989 325.0
71.9989 340.0