Folder: Dmitry_Cr2O3/XRD_data/W6725/XRD_Phi

Note: README.md
# W6725
## data
Folders:
- Transmission data (not corrected)
- "XRD_2ThetaOmega"
    - 10-130deg (whole range)
    - 58-72deg (range where we can see the peak)
    - "W6725_peaks.txt" tab seperated file with information about the film and substrate peak (important: Pos. [°2Th.])
- "XRD_Omega"
    - .xy-file containing data about the \omega-scan (Rocking curve)
    - "W6725_omega_peaks.txt" tab seperated file with information about the film peak (important: FWHM left [°])
- "XRD_Phi"
    - one file for the substrate (fix 2theta-position and rotate sample by 360°)
    - one file for the film
- "XRD_RSM"
    - not important for you, I think


Files:
- the highscore-plus files for omega and 2theta-scan (not important, i gave you everything extracted in the folders)
## the tilt angles
In the folder "tilt angle w6725" there is a picture of the reciprocal space maps. Along the c-direction (plane 30.6 and 30.-6) there is a tilt of ~32 arcseconds (32 (1/60)°). Also another picture zoomed onto the film peaks, ignore the numbers, they are just for correction.

The tilt angle perpendicular to the c-axis is only ~2 arcseconds.

# W6911m
Folders: same as above but wihtout transmission, Phi and RSM's

# Literature about growth

Here are 4 papers relevant for heteroepitaxial growth: (but be careful not to dive too deep, I am not sure how important the theoretical background is for you.)

Grundmann, M. (2018). Elastic theory of pseudomorphic monoclinic and rhombohedral heterostructures. Journal of Applied Physics, 124(18), 185302. https://doi.org/10.1063/1.5045845

Grundmann, M. (2020). A Most General and Facile Recipe for the Calculation of Heteroepitaxial Strain. Physica Status Solidi (b), 257(12), 2000323. https://doi.org/10.1002/pssb.202000323

Grundmann, M., & Lorenz, M. (2021). Azimuthal Anisotropy of Rhombohedral (Corundum Phase) Heterostructures. Physica Status Solidi (b), 258(7), 2100104. https://doi.org/10.1002/pssb.202100104

Kneiß, M., Splith, D., Von Wenckstern, H., Lorenz, M., Schultz, T., Koch, N., & Grundmann, M. (2021). Strain states and relaxation for alpha-Ga2O3 thin films on prismatic planes of alpha-Al2O3 in the full composition range: Fundamental difference of a- and m-epitaxial planes in the manifestation of shear strain and lattice tilt. Journal of Materials Research, 36(23), 4816–4831. https://doi.org/10.1557/s43578-021-00375-3

# Additional stuff
## W6725
fabrication details (probably not important for you)
- 650mJ laser energy, 40 000 pulses at 20 Hz
- 1e-3 mbar O2
- 760°C growth temperature
- 7.5mm offset from plasma center
- highest laser focus (high energy density)

In the folder additional stuff:

"1-RSM_latticeData.png"
- here you can see all three lattice constants extracted for some samples; the W6725 is the one in the middle

"1-shift_vs_d_combined.png"
- here you can see the 2theta scan compared to other samples from the series; the W6725 is the thickest (400nm)

## W6911

File: W6725_Al2O3_phi_360deg_25min_3mm_active_4.xy
-216.135 67.000
-214.935 77.000
-213.735 53.000
-212.535 47.000
-211.335 60.000
-210.135 64.000
-208.935 67.000
-207.735 64.000
-206.535 65.000
-205.335 58.000
-204.135 57.000
-202.935 64.000
-201.735 61.000
-200.535 61.000
-199.335 73.000
-198.135 65.000
-196.935 69.000
-195.735 61.000
-194.535 67.000
-193.335 64.000
-192.135 71.000
-190.935 59.000
-189.735 68.000
-188.535 72.000
-187.335 56.000
-186.135 64.000
-184.935 57.000
-183.735 75.000
-182.535 54.000
-181.335 66.000
-180.135 43.000
-178.935 53.000
-177.735 44.000
-176.535 48.000
-175.335 37.000
-174.135 48.000
-172.935 55.000
-171.735 30.000
-170.535 32.000
-169.335 26.000
-168.135 28.000
-166.935 39.000
-165.735 33.000
-164.535 31.000
-163.335 34.000
-162.135 25.000
-160.935 30.000
-159.735 47.000
-158.535 33.000
-157.335 25.000
-156.135 22.000
-154.935 43.000
-153.735 33.000
-152.535 51.000
-151.335 28.000
-150.135 47.000
-148.935 42.000
-147.735 43.000
-146.535 63.000
-145.335 61.000
-144.135 59.000
-142.935 100.000
-141.735 85.000
-140.535 85.000
-139.335 68.000
-138.135 71.000
-136.935 53.000
-135.735 60.000
-134.535 65.000
-133.335 53.000
-132.135 61.000
-130.935 59.000
-129.735 62.000
-128.535 64.000
-127.335 77.000
-126.135 54.000
-124.935 69.000
-123.735 60.000
-122.535 51.000
-121.335 59.000
-120.135 54.000
-118.935 68.000
-117.735 67.000
-116.535 64.000
-115.335 53.000
-114.135 61.000
-112.935 60.000
-111.735 56.000
-110.535 65.000
-109.335 75.000
-108.135 42.000
-106.935 60.000
-105.735 57.000
-104.535 54.000
-103.335 59.000
-102.135 53.000
-100.935 58.000
-99.73500 58.000
-98.53500 52.000
-97.33500 52.000
-96.13500 49.000
-94.93500 60.000
-93.73500 49.000
-92.53500 54.000
-91.33500 59.000
-90.13500 58.000
-88.93500 55.000
-87.73500 58.000
-86.53500 58.000
-85.33500 60.000
-84.13500 57.000
-82.93500 71.000
-81.73500 61.000
-80.53500 49.000
-79.33500 57.000
-78.13500 69.000
-76.93500 59.000
-75.73500 53.000
-74.53500 54.000
-73.33500 55.000
-72.13500 81.000
-70.93500 58.000
-69.73500 58.000
-68.53500 62.000
-67.33500 54.000
-66.13500 50.000
-64.93500 55.000
-63.73500 64.000
-62.53500 62.000
-61.33500 55.000
-60.13500 76.000
-58.93500 70.000
-57.73500 67.000
-56.53500 57.000
-55.33500 73.000
-54.13500 73.000
-52.93500 68.000
-51.73500 73.000
-50.53500 64.000
-49.33500 66.000
-48.13500 78.000
-46.93500 60.000
-45.73500 59.000
-44.53500 79.000
-43.33500 54.000
-42.13500 74.000
-40.93500 62.000
-39.73500 90.000
-38.53500 91.000
-37.33500 106.000
-36.13500 147.000
-34.93500 86.000
-33.73500 93.000
-32.53500 62.000
-31.33500 69.000
-30.13500 72.000
-28.93500 76.000
-27.73500 60.000
-26.53500 61.000
-25.33500 69.000
-24.13500 69.000
-22.93500 75.000
-21.73500 64.000
-20.53500 73.000
-19.33500 64.000
-18.13500 65.000
-16.93500 82.000
-15.73500 64.000
-14.53500 69.000
-13.33500 79.000
-12.13500 61.000
-10.93500 66.000
-9.73500 66.000
-8.53500 43.000
-7.33500 59.000
-6.13500 57.000
-4.93500 62.000
-3.73500 49.000
-2.53500 46.000
-1.33500 39.000
-0.13500 54.000
1.06500 43.000
2.26500 42.000
3.46500 27.000
4.66500 46.000
5.86500 31.000
7.06500 27.000
8.26500 31.000
9.46500 36.000
10.66500 35.000
11.86500 33.000
13.06500 19.000
14.26500 32.000
15.46500 38.000
16.66500 35.000
17.86500 24.000
19.06500 38.000
20.26500 34.000
21.46500 32.000
22.66500 37.000
23.86500 35.000
25.06500 34.000
26.26500 41.000
27.46500 30.000
28.66500 42.000
29.86500 40.000
31.06500 39.000
32.26500 50.000
33.46500 58.000
34.66500 59.000
35.86500 61.000
37.06500 68.000
38.26500 66.000
39.46500 66.000
40.66500 50.000
41.86500 59.000
43.06500 55.000
44.26500 80.000
45.46500 66.000
46.66500 63.000
47.86500 58.000
49.06500 62.000
50.26500 52.000
51.46500 58.000
52.66500 50.000
53.86500 64.000
55.06500 64.000
56.26500 67.000
57.46500 64.000
58.66500 79.000
59.86500 47.000
61.06500 56.000
62.26500 65.000
63.46500 60.000
64.66500 62.000
65.86500 57.000
67.06500 37.000
68.26500 55.000
69.46500 58.000
70.66500 60.000
71.86500 53.000
73.06500 49.000
74.26500 65.000
75.46500 67.000
76.66500 56.000
77.86500 56.000
79.06500 69.000
80.26500 47.000
81.46500 46.000
82.66500 50.000
83.86500 58.000
85.06500 69.000
86.26500 70.000
87.46500 62.000
88.66500 69.000
89.86500 63.000
91.06500 56.000
92.26500 68.000
93.46500 48.000
94.66500 41.000
95.86500 64.000
97.06500 65.000
98.26500 58.000
99.46500 58.000
100.665 63.000
101.865 54.000
103.065 57.000
104.265 71.000
105.465 73.000
106.665 52.000
107.865 56.000
109.065 62.000
110.265 54.000
111.465 63.000
112.665 60.000
113.865 62.000
115.065 72.000
116.265 59.000
117.465 71.000
118.665 63.000
119.865 69.000
121.065 67.000
122.265 59.000
123.465 70.000
124.665 59.000
125.865 90.000
127.065 58.000
128.265 72.000
129.465 70.000
130.665 72.000
131.865 63.000
133.065 68.000
134.265 63.000
135.465 72.000
136.665 73.000
137.865 73.000
139.065 69.000
140.265 73.000
141.465 71.000
142.665 61.000
143.765 59.000

File: W6725_Cr2O3_phi_360deg_2h_5.xy
-143.8500 1446.0
-142.6500 2396.0
-141.4500 505.0
-140.2500 176.0
-139.0500 121.0
-137.8500 108.0
-136.6500 102.0
-135.4500 116.0
-134.2500 110.0
-133.0500 92.0
-131.8500 112.0
-130.6500 99.0
-129.4500 97.0
-128.2500 106.0
-127.0500 117.0
-125.8500 109.0
-124.6500 98.0
-123.4500 123.0
-122.2500 105.0
-121.0500 101.0
-119.8500 104.0
-118.6500 111.0
-117.4500 111.0
-116.2500 117.0
-115.0500 96.0
-113.8500 107.0
-112.6500 115.0
-111.4500 100.0
-110.2500 105.0
-109.0500 90.0
-107.8500 105.0
-106.6500 103.0
-105.4500 92.0
-104.2500 90.0
-103.0500 115.0
-101.8500 109.0
-100.6500 72.0
-99.4500 109.0
-98.2500 92.0
-97.0500 78.0
-95.8500 92.0
-94.6500 97.0
-93.4500 113.0
-92.2500 96.0
-91.0500 110.0
-89.8500 101.0
-88.6500 92.0
-87.4500 87.0
-86.2500 75.0
-85.0500 83.0
-83.8500 95.0
-82.6500 73.0
-81.4500 85.0
-80.2500 82.0
-79.0500 103.0
-77.8500 84.0
-76.6500 102.0
-75.4500 99.0
-74.2500 109.0
-73.0500 115.0
-71.8500 108.0
-70.6500 94.0
-69.4500 102.0
-68.2500 106.0
-67.0500 121.0
-65.8500 121.0
-64.6500 110.0
-63.4500 116.0
-62.2500 129.0
-61.0500 100.0
-59.8500 106.0
-58.6500 118.0
-57.4500 117.0
-56.2500 119.0
-55.0500 114.0
-53.8500 107.0
-52.6500 131.0
-51.4500 108.0
-50.2500 87.0
-49.0500 118.0
-47.8500 110.0
-46.6500 108.0
-45.4500 117.0
-44.2500 133.0
-43.0500 118.0
-41.8500 115.0
-40.6500 106.0
-39.4500 129.0
-38.2500 160.0
-37.0500 488.0
-35.8500 2153.0
-34.6500 1317.0
-33.4500 239.0
-32.2500 173.0
-31.0500 116.0
-29.8500 123.0
-28.6500 118.0
-27.4500 124.0
-26.2500 124.0
-25.0500 117.0
-23.8500 115.0
-22.6500 112.0
-21.4500 114.0
-20.2500 94.0
-19.0500 114.0
-17.8500 106.0
-16.6500 114.0
-15.4500 115.0
-14.2500 99.0
-13.0500 106.0
-11.8500 109.0
-10.6500 94.0
-9.4500 84.0
-8.2500 102.0
-7.0500 114.0
-5.8500 95.0
-4.6500 97.0
-3.4500 92.0
-2.2500 91.0
-1.0500 87.0
0.1500 86.0
1.3500 69.0
2.5500 78.0
3.7500 76.0
4.9500 58.0
6.1500 55.0
7.3500 44.0
8.5500 59.0
9.7500 68.0
10.9500 56.0
12.1500 39.0
13.3500 57.0
14.5500 65.0
15.7500 50.0
16.9500 47.0
18.1500 49.0
19.3500 61.0
20.5500 70.0
21.7500 58.0
22.9500 65.0
24.1500 75.0
25.3500 77.0
26.5500 72.0
27.7500 68.0
28.9500 73.0
30.1500 69.0
31.3500 81.0
32.5500 92.0
33.7500 103.0
34.9500 100.0
36.1500 93.0
37.3500 90.0
38.5500 101.0
39.7500 104.0
40.9500 114.0
42.1500 94.0
43.3500 104.0
44.5500 122.0
45.7500 114.0
46.9500 104.0
48.1500 111.0
49.3500 100.0
50.5500 106.0
51.7500 118.0
52.9500 113.0
54.1500 109.0
55.3500 106.0
56.5500 85.0
57.7500 105.0
58.9500 94.0
60.1500 103.0
61.3500 106.0
62.5500 98.0
63.7500 106.0
64.9500 92.0
66.1500 97.0
67.3500 117.0
68.5500 88.0
69.7500 107.0
70.9500 117.0
72.1500 116.0
73.3500 87.0
74.5500 95.0
75.7500 106.0
76.9500 102.0
78.1500 106.0
79.3500 107.0
80.5500 104.0
81.7500 94.0
82.9500 101.0
84.1500 99.0
85.3500 89.0
86.5500 92.0
87.7500 95.0
88.9500 110.0
90.1500 119.0
91.3500 99.0
92.5500 76.0
93.7500 110.0
94.9500 84.0
96.1500 101.0
97.3500 88.0
98.5500 89.0
99.7500 115.0
100.9500 109.0
102.1500 125.0
103.3500 112.0
104.5500 107.0
105.7500 107.0
106.9500 103.0
108.1500 106.0
109.3500 102.0
110.5500 108.0
111.7500 109.0
112.9500 87.0
114.1500 118.0
115.3500 86.0
116.5500 119.0
117.7500 117.0
118.9500 102.0
120.1500 97.0
121.3500 109.0
122.5500 129.0
123.7500 108.0
124.9500 105.0
126.1500 110.0
127.3500 130.0
128.5500 121.0
129.7500 107.0
130.9500 122.0
132.1500 116.0
133.3500 98.0
134.5500 113.0
135.7500 120.0
136.9500 103.0
138.1500 115.0
139.3500 116.0
140.5500 117.0
141.7500 139.0
142.9500 118.0
144.1500 116.0
145.3500 118.0
146.5500 119.0
147.7500 133.0
148.9500 121.0
150.1500 107.0
151.3500 114.0
152.5500 109.0
153.7500 108.0
154.9500 114.0
156.1500 106.0
157.3500 115.0
158.5500 117.0
159.7500 118.0
160.9500 136.0
162.1500 101.0
163.3500 121.0
164.5500 102.0
165.7500 106.0
166.9500 95.0
168.1500 104.0
169.3500 98.0
170.5500 112.0
171.7500 110.0
172.9500 94.0
174.1500 103.0
175.3500 91.0
176.5500 96.0
177.7500 85.0
178.9500 88.0
180.1500 88.0
181.3500 71.0
182.5500 82.0
183.7500 81.0
184.9500 72.0
186.1500 76.0
187.3500 77.0
188.5500 63.0
189.7500 71.0
190.9500 64.0
192.1500 60.0
193.3500 61.0
194.5500 62.0
195.7500 61.0
196.9500 53.0
198.1500 58.0
199.3500 62.0
200.5500 50.0
201.7500 59.0
202.9500 72.0
204.1500 76.0
205.3500 74.0
206.5500 69.0
207.7500 87.0
208.9500 75.0
210.1500 82.0
211.3500 82.0
212.5500 98.0
213.7500 109.0
214.9500 158.0
216.0700 420.0