Folder: Dmitry_Cr2O3/XRD_data/W6725/XRD_Omega

Note: XRD_data/W6725/XRD_Omega/W6725_omega_peaks.TXT
No.	Label	Pos. [記mega]	FWHM Left [記mega]	Area [cts*記mega]	Backgr.[cts]	d-spacing [魔	Height [cts]	Shape Left	Status	Integral Breadth [記mega]	FWHM Right [記mega]	Shape Right	Obs. Lorentz B [記mega]	Obs. Gauss B [記mega]	Instr. Lorentz B [記mega]	Instr. Gauss B [記mega]	Crystallite Size [魔	Micro Strain [%]	Crystallite Size only [魔	Micro Strain only [%]
1	Cr2O3 3 0 0	31,4888(4)	0,631(1)	6522,31	2968,24	 	9710(39)	0,00(2)	Included	0,671688	 	 	0,001643	0,671688	0,074109	0,062782	-1265,558000	1,035018	137,122500	1,035134

Note: README.md
# W6725
## data
Folders:
- Transmission data (not corrected)
- "XRD_2ThetaOmega"
    - 10-130deg (whole range)
    - 58-72deg (range where we can see the peak)
    - "W6725_peaks.txt" tab seperated file with information about the film and substrate peak (important: Pos. [°2Th.])
- "XRD_Omega"
    - .xy-file containing data about the \omega-scan (Rocking curve)
    - "W6725_omega_peaks.txt" tab seperated file with information about the film peak (important: FWHM left [°])
- "XRD_Phi"
    - one file for the substrate (fix 2theta-position and rotate sample by 360°)
    - one file for the film
- "XRD_RSM"
    - not important for you, I think


Files:
- the highscore-plus files for omega and 2theta-scan (not important, i gave you everything extracted in the folders)
## the tilt angles
In the folder "tilt angle w6725" there is a picture of the reciprocal space maps. Along the c-direction (plane 30.6 and 30.-6) there is a tilt of ~32 arcseconds (32 (1/60)°). Also another picture zoomed onto the film peaks, ignore the numbers, they are just for correction.

The tilt angle perpendicular to the c-axis is only ~2 arcseconds.

# W6911m
Folders: same as above but wihtout transmission, Phi and RSM's

# Literature about growth

Here are 4 papers relevant for heteroepitaxial growth: (but be careful not to dive too deep, I am not sure how important the theoretical background is for you.)

Grundmann, M. (2018). Elastic theory of pseudomorphic monoclinic and rhombohedral heterostructures. Journal of Applied Physics, 124(18), 185302. https://doi.org/10.1063/1.5045845

Grundmann, M. (2020). A Most General and Facile Recipe for the Calculation of Heteroepitaxial Strain. Physica Status Solidi (b), 257(12), 2000323. https://doi.org/10.1002/pssb.202000323

Grundmann, M., & Lorenz, M. (2021). Azimuthal Anisotropy of Rhombohedral (Corundum Phase) Heterostructures. Physica Status Solidi (b), 258(7), 2100104. https://doi.org/10.1002/pssb.202100104

Kneiß, M., Splith, D., Von Wenckstern, H., Lorenz, M., Schultz, T., Koch, N., & Grundmann, M. (2021). Strain states and relaxation for alpha-Ga2O3 thin films on prismatic planes of alpha-Al2O3 in the full composition range: Fundamental difference of a- and m-epitaxial planes in the manifestation of shear strain and lattice tilt. Journal of Materials Research, 36(23), 4816–4831. https://doi.org/10.1557/s43578-021-00375-3

# Additional stuff
## W6725
fabrication details (probably not important for you)
- 650mJ laser energy, 40 000 pulses at 20 Hz
- 1e-3 mbar O2
- 760°C growth temperature
- 7.5mm offset from plasma center
- highest laser focus (high energy density)

In the folder additional stuff:

"1-RSM_latticeData.png"
- here you can see all three lattice constants extracted for some samples; the W6725 is the one in the middle

"1-shift_vs_d_combined.png"
- here you can see the 2theta scan compared to other samples from the series; the W6725 is the thickest (400nm)

## W6911

File: _Cr2O3_scan_omega_2deg_step_0.002deg0_W6725.xy
30.50470 2567.0
30.51270 2577.0
30.52070 2565.0
30.52870 2647.0
30.53670 2701.0
30.54470 2700.0
30.55270 2783.0
30.56070 2915.0
30.56870 3005.0
30.57670 3074.0
30.58470 3195.0
30.59270 3209.0
30.60070 3194.0
30.60870 3308.0
30.61670 3331.0
30.62470 3456.0
30.63270 3577.0
30.64070 3700.0
30.64870 3672.0
30.65670 3837.0
30.66470 3898.0
30.67270 3872.0
30.68070 4074.0
30.68870 4258.0
30.69670 4198.0
30.70470 4532.0
30.71270 4576.0
30.72070 4683.0
30.72870 4683.0
30.73670 4839.0
30.74470 5046.0
30.75270 5127.0
30.76070 5205.0
30.76870 5448.0
30.77670 5382.0
30.78470 5515.0
30.79270 5829.0
30.80070 6022.0
30.80870 6043.0
30.81670 6163.0
30.82470 6351.0
30.83270 6472.0
30.84070 6551.0
30.84870 6601.0
30.85670 7080.0
30.86470 6940.0
30.87270 7349.0
30.88070 7259.0
30.88870 7578.0
30.89670 7908.0
30.90470 7941.0
30.91270 8223.0
30.92070 8215.0
30.92870 8623.0
30.93670 8845.0
30.94470 9023.0
30.95270 9284.0
30.96070 9390.0
30.96870 9722.0
30.97670 9766.0
30.98470 9941.0
30.99270 10017.0
31.00070 10504.0
31.00870 10653.0
31.01670 10945.0
31.02470 11055.0
31.03270 11507.0
31.04070 11780.0
31.04870 12120.0
31.05670 12421.0
31.06470 12758.0
31.07270 12880.0
31.08070 13118.0
31.08870 13716.0
31.09670 13699.0
31.10470 14091.0
31.11270 14300.0
31.12070 14397.0
31.12870 14798.0
31.13670 15279.0
31.14470 15381.0
31.15270 15917.0
31.16070 16103.0
31.16870 16477.0
31.17670 16750.0
31.18470 17129.0
31.19270 17557.0
31.20070 17738.0
31.20870 17860.0
31.21670 18286.0
31.22470 18341.0
31.23270 18700.0
31.24070 19066.0
31.24870 19558.0
31.25670 19702.0
31.26470 20179.0
31.27270 20401.0
31.28070 20717.0
31.28870 21102.0
31.29670 21149.0
31.30470 21582.0
31.31270 21818.0
31.32070 22284.0
31.32870 22687.0
31.33670 22955.0
31.34470 23418.0
31.35270 23520.0
31.36070 23624.0
31.36870 24113.0
31.37670 24243.0
31.38470 24636.0
31.39270 24382.0
31.40070 24762.0
31.40870 24676.0
31.41670 24708.0
31.42470 24838.0
31.43270 24895.0
31.44070 24999.0
31.44870 25600.0
31.45670 25573.0
31.46470 25718.0
31.47270 26081.0
31.48070 25701.0
31.48870 25868.0
31.49670 25788.0
31.50470 25819.0
31.51270 26187.0
31.52070 26021.0
31.52870 26126.0
31.53670 26118.0
31.54470 26106.0
31.55270 26196.0
31.56070 26166.0
31.56870 25894.0
31.57670 25762.0
31.58470 25895.0
31.59270 25541.0
31.60070 25945.0
31.60870 25816.0
31.61670 25497.0
31.62470 25391.0
31.63270 25270.0
31.64070 25074.0
31.64870 24913.0
31.65670 24457.0
31.66470 24662.0
31.67270 24010.0
31.68070 24290.0
31.68870 23312.0
31.69670 23663.0
31.70470 23524.0
31.71270 23484.0
31.72070 22375.0
31.72870 22729.0
31.73670 22386.0
31.74470 22240.0
31.75270 22114.0
31.76070 21798.0
31.76870 21476.0
31.77670 21236.0
31.78470 20830.0
31.79270 20502.0
31.80070 20228.0
31.80870 19817.0
31.81670 19707.0
31.82470 19294.0
31.83270 18924.0
31.84070 18461.0
31.84870 18500.0
31.85670 17891.0
31.86470 17366.0
31.87270 17202.0
31.88070 17397.0
31.88870 17272.0
31.89670 16737.0
31.90470 16741.0
31.91270 16304.0
31.92070 15886.0
31.92870 15740.0
31.93670 15534.0
31.94470 15019.0
31.95270 14823.0
31.96070 14396.0
31.96870 14312.0
31.97670 13990.0
31.98470 13695.0
31.99270 13375.0
32.00070 13143.0
32.00870 12807.0
32.01670 12457.0
32.02470 12306.0
32.03270 11960.0
32.04070 11828.0
32.04870 11424.0
32.05670 11134.0
32.06470 10783.0
32.07270 10744.0
32.08070 10550.0
32.08870 10167.0
32.09670 9784.0
32.10470 9869.0
32.11270 9742.0
32.12070 9410.0
32.12870 9150.0
32.13670 8752.0
32.14470 8761.0
32.15270 8563.0
32.16070 8303.0
32.16870 8118.0
32.17670 7829.0
32.18470 7726.0
32.19270 7758.0
32.20070 7571.0
32.20870 7364.0
32.21670 7150.0
32.22470 6897.0
32.23270 6930.0
32.24070 6695.0
32.24870 6543.0
32.25670 6424.0
32.26470 6141.0
32.27270 6040.0
32.28070 5860.0
32.28870 5862.0
32.29670 5684.0
32.30470 5592.0
32.31270 5467.0
32.32070 5249.0
32.32870 5094.0
32.33670 4977.0
32.34470 4911.0
32.35270 4964.0
32.36070 4593.0
32.36870 4511.0
32.37670 4463.0
32.38470 4383.0
32.39270 4400.0
32.40070 4191.0
32.40870 4080.0
32.41670 3946.0
32.42470 4027.0
32.43270 3832.0
32.44070 3689.0
32.44870 3613.0
32.45670 3609.0
32.46470 3471.0
32.47270 3380.0
32.48070 3313.0
32.48870 3376.0