Folder: Dmitry_Cr2O3/XRD_data/W6911m/XRD_Omega

Note: XRD_data/W6911m/XRD_Omega/W6911m_omega_peaks.TXT
No.	Label	Pos. [記mega]	FWHM Left [記mega]	Area [cts*記mega]	Backgr.[cts]	d-spacing [魔	Height [cts]	Shape Left	Status	Integral Breadth [記mega]	FWHM Right [記mega]	Shape Right	Obs. Lorentz B [記mega]	Obs. Gauss B [記mega]	Instr. Lorentz B [記mega]	Instr. Gauss B [記mega]	Crystallite Size [魔	Micro Strain [%]	Crystallite Size only [魔	Micro Strain only [%]
1	Cr2O3 3 0 0	32,0903(8)	0,845(5)	1364,54	37,31	 	1290(16)	0,46(4)	Included	1,057534	 	 	0,531501	0,684503	0,074079	0,062756	200,794400	1,034125	91,680970	1,519918

Note: README.md
# W6725
## data
Folders:
- Transmission data (not corrected)
- "XRD_2ThetaOmega"
    - 10-130deg (whole range)
    - 58-72deg (range where we can see the peak)
    - "W6725_peaks.txt" tab seperated file with information about the film and substrate peak (important: Pos. [°2Th.])
- "XRD_Omega"
    - .xy-file containing data about the \omega-scan (Rocking curve)
    - "W6725_omega_peaks.txt" tab seperated file with information about the film peak (important: FWHM left [°])
- "XRD_Phi"
    - one file for the substrate (fix 2theta-position and rotate sample by 360°)
    - one file for the film
- "XRD_RSM"
    - not important for you, I think


Files:
- the highscore-plus files for omega and 2theta-scan (not important, i gave you everything extracted in the folders)
## the tilt angles
In the folder "tilt angle w6725" there is a picture of the reciprocal space maps. Along the c-direction (plane 30.6 and 30.-6) there is a tilt of ~32 arcseconds (32 (1/60)°). Also another picture zoomed onto the film peaks, ignore the numbers, they are just for correction.

The tilt angle perpendicular to the c-axis is only ~2 arcseconds.

# W6911m
Folders: same as above but wihtout transmission, Phi and RSM's

# Literature about growth

Here are 4 papers relevant for heteroepitaxial growth: (but be careful not to dive too deep, I am not sure how important the theoretical background is for you.)

Grundmann, M. (2018). Elastic theory of pseudomorphic monoclinic and rhombohedral heterostructures. Journal of Applied Physics, 124(18), 185302. https://doi.org/10.1063/1.5045845

Grundmann, M. (2020). A Most General and Facile Recipe for the Calculation of Heteroepitaxial Strain. Physica Status Solidi (b), 257(12), 2000323. https://doi.org/10.1002/pssb.202000323

Grundmann, M., & Lorenz, M. (2021). Azimuthal Anisotropy of Rhombohedral (Corundum Phase) Heterostructures. Physica Status Solidi (b), 258(7), 2100104. https://doi.org/10.1002/pssb.202100104

Kneiß, M., Splith, D., Von Wenckstern, H., Lorenz, M., Schultz, T., Koch, N., & Grundmann, M. (2021). Strain states and relaxation for alpha-Ga2O3 thin films on prismatic planes of alpha-Al2O3 in the full composition range: Fundamental difference of a- and m-epitaxial planes in the manifestation of shear strain and lattice tilt. Journal of Materials Research, 36(23), 4816–4831. https://doi.org/10.1557/s43578-021-00375-3

# Additional stuff
## W6725
fabrication details (probably not important for you)
- 650mJ laser energy, 40 000 pulses at 20 Hz
- 1e-3 mbar O2
- 760°C growth temperature
- 7.5mm offset from plasma center
- highest laser focus (high energy density)

In the folder additional stuff:

"1-RSM_latticeData.png"
- here you can see all three lattice constants extracted for some samples; the W6725 is the one in the middle

"1-shift_vs_d_combined.png"
- here you can see the 2theta scan compared to other samples from the series; the W6725 is the thickest (400nm)

## W6911

File: w6911m_m-Cr2O3_scan_omega_4deg_step_0.005deg0_2.xy
30.12630 66.0
30.14130 82.0
30.15630 88.0
30.17130 60.0
30.18630 68.0
30.20130 93.0
30.21630 80.0
30.23130 86.0
30.24630 102.0
30.26130 85.0
30.27630 84.0
30.29130 94.0
30.30630 67.0
30.32130 83.0
30.33630 97.0
30.35130 98.0
30.36630 102.0
30.38130 103.0
30.39630 85.0
30.41130 93.0
30.42630 90.0
30.44130 82.0
30.45630 97.0
30.47130 95.0
30.48630 80.0
30.50130 77.0
30.51630 87.0
30.53130 97.0
30.54630 80.0
30.56130 101.0
30.57630 98.0
30.59130 80.0
30.60630 89.0
30.62130 121.0
30.63630 96.0
30.65130 91.0
30.66630 95.0
30.68130 102.0
30.69630 92.0
30.71130 106.0
30.72630 95.0
30.74130 99.0
30.75630 101.0
30.77130 96.0
30.78630 112.0
30.80130 93.0
30.81630 117.0
30.83130 107.0
30.84630 105.0
30.86130 105.0
30.87630 116.0
30.89130 129.0
30.90630 127.0
30.92130 130.0
30.93630 121.0
30.95130 102.0
30.96630 122.0
30.98130 132.0
30.99630 126.0
31.01130 133.0
31.02630 165.0
31.04130 140.0
31.05630 118.0
31.07130 161.0
31.08630 165.0
31.10130 149.0
31.11630 168.0
31.13130 181.0
31.14630 175.0
31.16130 182.0
31.17630 197.0
31.19130 221.0
31.20630 179.0
31.22130 200.0
31.23630 244.0
31.25130 231.0
31.26630 221.0
31.28130 275.0
31.29630 275.0
31.31130 272.0
31.32630 287.0
31.34130 311.0
31.35630 346.0
31.37130 368.0
31.38630 362.0
31.40130 354.0
31.41630 389.0
31.43130 370.0
31.44630 424.0
31.46130 473.0
31.47630 517.0
31.49130 477.0
31.50630 535.0
31.52130 603.0
31.53630 552.0
31.55130 627.0
31.56630 712.0
31.58130 690.0
31.59630 753.0
31.61130 776.0
31.62630 822.0
31.64130 889.0
31.65630 889.0
31.67130 931.0
31.68630 943.0
31.70130 1002.0
31.71630 1015.0
31.73130 1161.0
31.74630 1209.0
31.76130 1169.0
31.77630 1287.0
31.79130 1363.0
31.80630 1334.0
31.82130 1395.0
31.83630 1514.0
31.85130 1505.0
31.86630 1569.0
31.88130 1608.0
31.89630 1666.0
31.91130 1710.0
31.92630 1702.0
31.94130 1773.0
31.95630 1744.0
31.97130 1850.0
31.98630 1886.0
32.00130 1926.0
32.01630 1850.0
32.03130 1994.0
32.04630 1911.0
32.06130 1923.0
32.07630 1924.0
32.09130 1978.0
32.10630 1969.0
32.12130 1872.0
32.13630 1889.0
32.15130 1876.0
32.16630 1889.0
32.18130 1902.0
32.19630 1937.0
32.21130 1807.0
32.22630 1778.0
32.24130 1837.0
32.25630 1810.0
32.27130 1752.0
32.28630 1638.0
32.30130 1719.0
32.31630 1687.0
32.33130 1631.0
32.34630 1620.0
32.36130 1578.0
32.37630 1632.0
32.39130 1538.0
32.40630 1472.0
32.42130 1380.0
32.43630 1302.0
32.45130 1286.0
32.46630 1202.0
32.48130 1211.0
32.49630 1194.0
32.51130 1068.0
32.52630 998.0
32.54130 1056.0
32.55630 960.0
32.57130 889.0
32.58630 865.0
32.60130 836.0
32.61630 815.0
32.63130 743.0
32.64630 699.0
32.66130 670.0
32.67630 666.0
32.69130 604.0
32.70630 624.0
32.72130 587.0
32.73630 594.0
32.75130 563.0
32.76630 524.0
32.78130 474.0
32.79630 521.0
32.81130 459.0
32.82630 421.0
32.84130 390.0
32.85630 365.0
32.87130 382.0
32.88630 365.0
32.90130 359.0
32.91630 325.0
32.93130 272.0
32.94630 293.0
32.96130 309.0
32.97630 269.0
32.99130 279.0
33.00630 252.0
33.02130 231.0
33.03630 245.0
33.05130 248.0
33.06630 179.0
33.08130 236.0
33.09630 202.0
33.11130 186.0
33.12630 203.0
33.14130 191.0
33.15630 179.0
33.17130 152.0
33.18630 181.0
33.20130 138.0
33.21630 160.0
33.23130 182.0
33.24630 150.0
33.26130 163.0
33.27630 169.0
33.29130 154.0
33.30630 130.0
33.32130 122.0
33.33630 132.0
33.35130 126.0
33.36630 113.0
33.38130 120.0
33.39630 103.0
33.41130 115.0
33.42630 119.0
33.44130 126.0
33.45630 102.0
33.47130 89.0
33.48630 108.0
33.50130 130.0
33.51630 90.0
33.53130 92.0
33.54630 107.0
33.56130 86.0
33.57630 103.0
33.59130 97.0
33.60630 101.0
33.62130 92.0
33.63630 104.0
33.65130 79.0
33.66630 98.0
33.68130 93.0
33.69630 99.0
33.71130 96.0
33.72630 103.0
33.74130 86.0
33.75630 94.0
33.77130 103.0
33.78630 88.0
33.80130 77.0
33.81630 88.0
33.83130 92.0
33.84630 81.0
33.86130 96.0
33.87630 88.0
33.89130 78.0
33.90630 82.0
33.92130 88.0
33.93630 86.0
33.95130 105.0
33.96630 78.0
33.98130 77.0
33.99630 83.0
34.01130 70.0
34.02630 72.0
34.04130 67.0
34.05630 70.0
34.07130 71.0
34.08630 83.0