Folder: Dmitry_Cr2O3/XRD_data/W6911m/XRD_2ThetaOmega

Note: XRD_data/W6911m/XRD_2ThetaOmega/W6911m_peaks.TXT
No.	Label	Pos. [°2Th.]	FWHM Left [°2Th.]	Area [cts*°2Th.]	Backgr.[cts]	d-spacing [Å]	Height [cts]	Shape Left	Status	Integral Breadth [°2Th.]	FWHM Right [°2Th.]	Shape Right	Obs. Lorentz B [°2Th.]	Obs. Gauss B [°2Th.]	Instr. Lorentz B [°2Th.]	Instr. Gauss B [°2Th.]	Crystallite Size [Å]	Micro Strain [%]	Crystallite Size only [Å]	Micro Strain only [%]
1	Cr2O3 3 0 0	64,9335(4)	0,341(1)	912,24	215,01	1,43496	2282(9)	0,283(8)	Included	0,399746	 	 	0,126644	0,313536	0,077452	0,065616	2126,781000	0,210256	309,024300	0,232175
2	Al2O3 3 0 0	68,15733(1)	0,06006(3)	27878,18	245,70	1,37472	361774(197)	0,5287(7)	Included	0,077060	 	 	0,043766	0,045943	0,078469	0,066477	-3071,001000	-0,030989	33697,050000	0,002040

Note: README.md
# W6725
## data
Folders:
- Transmission data (not corrected)
- "XRD_2ThetaOmega"
    - 10-130deg (whole range)
    - 58-72deg (range where we can see the peak)
    - "W6725_peaks.txt" tab seperated file with information about the film and substrate peak (important: Pos. [°2Th.])
- "XRD_Omega"
    - .xy-file containing data about the \omega-scan (Rocking curve)
    - "W6725_omega_peaks.txt" tab seperated file with information about the film peak (important: FWHM left [°])
- "XRD_Phi"
    - one file for the substrate (fix 2theta-position and rotate sample by 360°)
    - one file for the film
- "XRD_RSM"
    - not important for you, I think


Files:
- the highscore-plus files for omega and 2theta-scan (not important, i gave you everything extracted in the folders)
## the tilt angles
In the folder "tilt angle w6725" there is a picture of the reciprocal space maps. Along the c-direction (plane 30.6 and 30.-6) there is a tilt of ~32 arcseconds (32 (1/60)°). Also another picture zoomed onto the film peaks, ignore the numbers, they are just for correction.

The tilt angle perpendicular to the c-axis is only ~2 arcseconds.

# W6911m
Folders: same as above but wihtout transmission, Phi and RSM's

# Literature about growth

Here are 4 papers relevant for heteroepitaxial growth: (but be careful not to dive too deep, I am not sure how important the theoretical background is for you.)

Grundmann, M. (2018). Elastic theory of pseudomorphic monoclinic and rhombohedral heterostructures. Journal of Applied Physics, 124(18), 185302. https://doi.org/10.1063/1.5045845

Grundmann, M. (2020). A Most General and Facile Recipe for the Calculation of Heteroepitaxial Strain. Physica Status Solidi (b), 257(12), 2000323. https://doi.org/10.1002/pssb.202000323

Grundmann, M., & Lorenz, M. (2021). Azimuthal Anisotropy of Rhombohedral (Corundum Phase) Heterostructures. Physica Status Solidi (b), 258(7), 2100104. https://doi.org/10.1002/pssb.202100104

Kneiß, M., Splith, D., Von Wenckstern, H., Lorenz, M., Schultz, T., Koch, N., & Grundmann, M. (2021). Strain states and relaxation for alpha-Ga2O3 thin films on prismatic planes of alpha-Al2O3 in the full composition range: Fundamental difference of a- and m-epitaxial planes in the manifestation of shear strain and lattice tilt. Journal of Materials Research, 36(23), 4816–4831. https://doi.org/10.1557/s43578-021-00375-3

# Additional stuff
## W6725
fabrication details (probably not important for you)
- 650mJ laser energy, 40 000 pulses at 20 Hz
- 1e-3 mbar O2
- 760°C growth temperature
- 7.5mm offset from plasma center
- highest laser focus (high energy density)

In the folder additional stuff:

"1-RSM_latticeData.png"
- here you can see all three lattice constants extracted for some samples; the W6725 is the one in the middle

"1-shift_vs_d_combined.png"
- here you can see the 2theta scan compared to other samples from the series; the W6725 is the thickest (400nm)

## W6911

File: w6911m_scan_2th-om_m_Cr2O3_55-75deg_PIXscan_4min.xy
55.0019 126.0
55.0708 110.0
55.1397 114.0
55.2087 117.0
55.2776 115.0
55.3465 115.0
55.4155 125.0
55.4844 130.0
55.5533 143.0
55.6223 111.0
55.6912 117.0
55.7601 137.0
55.8291 116.0
55.898 112.0
55.9669 132.0
56.0359 110.0
56.1048 130.0
56.1737 117.0
56.2427 128.0
56.3116 129.0
56.3805 135.0
56.4495 135.0
56.5184 119.0
56.5873 110.0
56.6563 124.0
56.7252 125.0
56.7941 110.0
56.8631 145.0
56.932 120.0
57.0009 122.0
57.0699 121.0
57.1388 110.0
57.2077 121.0
57.2767 123.0
57.3456 124.0
57.4145 133.0
57.4835 123.0
57.5524 138.0
57.6213 135.0
57.6903 127.0
57.7592 143.0
57.8282 129.0
57.8971 141.0
57.966 144.0
58.035 137.0
58.1039 148.0
58.1728 137.0
58.2418 148.0
58.3107 117.0
58.3796 108.0
58.4486 135.0
58.5175 128.0
58.5864 142.0
58.6554 122.0
58.7243 116.0
58.7932 135.0
58.8622 117.0
58.9311 125.0
59 126.0
59.069 116.0
59.1379 126.0
59.2068 133.0
59.2758 121.0
59.3447 137.0
59.4136 137.0
59.4826 157.0
59.5515 123.0
59.6204 118.0
59.6894 134.0
59.7583 125.0
59.8272 119.0
59.8962 116.0
59.9651 140.0
60.034 140.0
60.103 128.0
60.1719 124.0
60.2408 129.0
60.3098 140.0
60.3787 131.0
60.4476 143.0
60.5166 159.0
60.5855 142.0
60.6544 148.0
60.7234 201.0
60.7923 804.0
60.8612 1101.0
60.9302 522.0
60.9991 210.0
61.068 173.0
61.137 158.0
61.2059 167.0
61.2748 138.0
61.3438 135.0
61.4127 131.0
61.4816 123.0
61.5506 147.0
61.6195 136.0
61.6884 142.0
61.7574 144.0
61.8263 154.0
61.8952 154.0
61.9642 117.0
62.0331 134.0
62.102 135.0
62.171 143.0
62.2399 137.0
62.3089 130.0
62.3778 136.0
62.4467 146.0
62.5157 150.0
62.5846 140.0
62.6535 131.0
62.7225 139.0
62.7914 131.0
62.8603 147.0
62.9293 152.0
62.9982 151.0
63.0671 154.0
63.1361 144.0
63.205 141.0
63.2739 158.0
63.3429 138.0
63.4118 167.0
63.4807 139.0
63.5497 135.0
63.6186 161.0
63.6875 172.0
63.7565 175.0
63.8254 167.0
63.8943 176.0
63.9633 177.0
64.0322 193.0
64.1011 186.0
64.1701 194.0
64.239 210.0
64.3079 211.0
64.3769 247.0
64.4458 298.0
64.5147 392.0
64.5837 494.0
64.6526 714.0
64.7215 1047.0
64.7905 1629.0
64.8594 2452.0
64.9283 3150.0
64.9973 3103.0
65.0662 2654.0
65.1351 2168.0
65.2041 1637.0
65.273 1019.0
65.3419 716.0
65.4109 498.0
65.4798 377.0
65.5487 349.0
65.6177 283.0
65.6866 246.0
65.7555 278.0
65.8245 273.0
65.8934 226.0
65.9623 227.0
66.0313 224.0
66.1002 236.0
66.1691 228.0
66.2381 266.0
66.307 281.0
66.3759 287.0
66.4449 327.0
66.5138 321.0
66.5828 332.0
66.6517 374.0
66.7206 380.0
66.7896 432.0
66.8585 421.0
66.9274 424.0
66.9964 468.0
67.0653 450.0
67.1342 482.0
67.2032 538.0
67.2721 596.0
67.341 620.0
67.41 672.0
67.4789 790.0
67.5478 883.0
67.6168 1009.0
67.6857 1312.0
67.7546 2130.0
67.8236 3446.0
67.8925 3461.0
67.9614 4052.0
68.0304 8375.0
68.0993 42874.0
68.1682 329629.0
68.2372 25091.0
68.3061 52595.0
68.375 120707.0
68.444 10126.0
68.5129 4148.0
68.5818 2702.0
68.6508 1923.0
68.7197 1505.0
68.7886 1169.0
68.8576 932.0
68.9265 757.0
68.9954 753.0
69.0644 666.0
69.1333 608.0
69.2022 505.0
69.2712 495.0
69.3401 388.0
69.409 382.0
69.478 369.0
69.5469 319.0
69.6158 279.0
69.6848 286.0
69.7537 269.0
69.8226 255.0
69.8916 234.0
69.9605 233.0
70.0294 255.0
70.0984 200.0
70.1673 200.0
70.2362 181.0
70.3052 184.0
70.3741 183.0
70.443 176.0
70.512 160.0
70.5809 189.0
70.6498 157.0
70.7188 170.0
70.7877 172.0
70.8566 160.0
70.9256 182.0
70.9945 172.0
71.0635 160.0
71.1324 148.0
71.2013 176.0
71.2703 159.0
71.3392 160.0
71.4081 144.0
71.4771 159.0
71.546 151.0
71.6149 158.0
71.6839 155.0
71.7528 161.0
71.8217 150.0
71.8907 153.0
71.9596 127.0
72.0285 139.0
72.0975 136.0
72.1664 123.0
72.2353 163.0
72.3043 163.0
72.3732 149.0
72.4421 154.0
72.5111 132.0
72.58 156.0
72.6489 149.0
72.7179 161.0
72.7868 127.0
72.8557 148.0
72.9247 137.0
72.9936 157.0
73.0625 121.0
73.1315 160.0
73.2004 147.0
73.2693 151.0
73.3383 123.0
73.4072 143.0
73.4761 136.0
73.5451 152.0
73.614 129.0
73.6829 141.0
73.7519 144.0
73.8208 121.0
73.8897 148.0
73.9587 137.0
74.0276 134.0
74.0965 124.0
74.1655 143.0
74.2344 138.0
74.3033 137.0
74.3723 161.0
74.4412 120.0
74.5101 142.0
74.5791 126.0
74.648 155.0
74.7169 148.0
74.7859 127.0
74.8548 145.0
74.9237 131.0
74.9927 140.0
74.9976 144.0